timestamp_us,gyro_x,gyro_y,gyro_z,quat_w,quat_x,quat_y,quat_z,bias_x,bias_y,bias_z,motor_0,motor_1,motor_2,motor_3,altitude_m,vz_mps
2634000,0.002130528911948204,-0.002130528911948204,0.0,1.0,5.409770164988004e-05,-4.651167182601057e-05,-1.2784727005055174e-05,-3.705531980813248e-06,2.305193447682541e-06,4.736146475003977e-10,0.0,0.0,0.0,0.0,0.0,0.0
2654000,0.002130528911948204,-0.004261057823896408,-0.002130528911948204,1.0,0.00013971890439279377,-7.810247188899666e-05,-4.2621089960448444e-05,-1.1621116755122785e-05,2.903615495597478e-06,1.8668462331561386e-09,0.0,0.0,0.0,0.0,0.0,0.0
2674000,0.0,-0.002130528911948204,-0.004261057823896408,1.0,0.0002134310925612226,-5.842106475029141e-05,-5.9681013226509094e-05,-1.8125308997696266e-05,-1.8341337408855907e-06,4.188721813846996e-09,0.0,0.0,0.0,0.0,0.0,0.0
2694000,0.002130528911948204,-0.006391586735844612,-0.002130528911948204,1.0,0.0002811577869579196,-6.095173739595339e-05,-7.461762288585305e-05,-2.2959189664106816e-05,-5.626646725431783e-06,6.980964251113164e-09,0.0,0.0,0.0,0.0,0.0,0.0
2714000,0.004261057823896408,0.0,-0.002130528911948204,1.0,0.0003170800337102264,-6.000902794767171e-05,-8.527971658622846e-05,-2.4398756067967042e-05,-7.630660547874868e-06,8.026202813482541e-09,0.0,0.0,0.0,0.0,0.0,0.0
2734000,0.004261057823896408,-0.006391586735844612,-0.002130528911948204,1.0,0.00037887549842707813,-4.7374298446811736e-05,-8.95638731890358e-05,-2.9699534934479743e-05,-1.1441263268352486e-05,1.0988537191281011e-08,0.0,0.0,0.0,0.0,0.007426402997225523,0.010444044135510921
2754000,0.004261057823896408,-0.002130528911948204,-0.002130528911948204,1.0,0.0004510454600676894,-8.779063500696793e-05,-0.00011727322271326557,-3.390221172594465e-05,-1.0797602044476662e-05,1.1092224916353643e-08,0.0,0.0,0.0,0.0,0.0027852877974510193,0.004092257935553789
2774000,0.002130528911948204,-0.004261057823896408,-0.002130528911948204,0.9999998807907104,0.0005500836996361613,-8.30592616694048e-05,-0.00012368087482172996,-4.227667523082346e-05,-1.2111915566492826e-05,1.3649762209411165e-08,0.0,0.0,0.0,0.0,0.002224621130153537,0.003704600967466831
2794000,-0.002130528911948204,-0.004261057823896408,-0.004261057823896408,0.9999998807907104,0.0005840172525495291,-6.13759839325212e-05,-0.00013437462621368468,-4.4986216380493715e-05,-1.660898851696402e-05,1.9316269472824388e-08,0.0,0.0,0.0,0.0,0.0008002122631296515,0.0020279320888221264
2814000,0.004261057823896408,-0.004261057823896408,-0.004261057823896408,0.9999997615814209,0.0006581051857210696,-0.00011350816930644214,-0.00014928964083082974,-5.107010292704217e-05,-1.3724469681619667e-05,1.699703489066451e-08,0.0,0.0,0.0,0.0,-0.002512776292860508,-0.0023218037094920874
2834000,-0.002130528911948204,-0.006391586735844612,0.004261057823896408,0.9999997615814209,0.0006509643862955272,-0.00018596059817355126,-0.00015141117910388857,-4.9879465223057196e-05,-9.664572644396685e-06,1.1079131390090424e-08,0.0,0.0,0.0,0.0,-0.004090343602001667,-0.0038441831711679697
2854000,0.0,-0.002130528911948204,-0.002130528911948204,0.9999996423721313,0.0007355879643000662,-0.0002498038811609149,-0.00015141407493501902,-5.701022382709198e-05,-5.830398094985867e-06,8.641751314542034e-09,0.0,0.0,0.0,0.0,0.0005593295209109783,0.003700750879943371
2874000,-0.002130528911948204,-0.002130528911948204,0.0,0.9999997615814209,0.0007497308542951941,-0.0002985956671182066,-0.0001577996154082939,-5.687694647349417e-05,-3.2893469779082807e-06,4.787451324261838e-09,0.0,0.0,0.0,0.0,0.005589133594185114,0.011164846830070019
2894000,0.002130528911948204,-0.002130528911948204,0.0,0.9999996423721313,0.0008069730247370899,-0.00028140877839177847,-0.00016850820975378156,-6.19025740888901e-05,-7.13181452738354e-06,1.307627606195183e-08,0.0,0.0,0.0,0.0,0.0029904181137681007,0.007396081928163767
2914000,0.0,-0.004261057823896408,-0.002130528911948204,0.9999996423721313,0.0008009927114471793,-0.00033370574237778783,-0.00019620887178462,-6.188152474351227e-05,-4.66435267298948e-06,9.018149782491491e-09,0.0,0.0,0.0,0.0,-0.003454933874309063,-0.0011892662150785327
2934000,0.002130528911948204,-0.002130528911948204,0.002130528911948204,0.9999996423721313,0.0008493459317833185,-0.00034733948996290565,-0.00020690209930762649,-6.43092134851031e-05,-6.490327450592304e-06,1.3470121018599457e-08,0.0,0.0,0.0,0.0,-0.0037876716814935207,-0.0009672436863183975
2954000,0.002130528911948204,-0.002130528911948204,-0.002130528911948204,0.9999996423721313,0.0008773013250902295,-0.0003892267122864723,-0.00022822724713478237,-6.639965431531891e-05,-5.276489901007153e-06,1.2747968902715456e-08,0.0,0.0,0.0,0.0,-0.013531558215618134,-0.014310695230960846
2974000,0.002130528911948204,-0.002130528911948204,0.0,0.9999995231628418,0.0008922473643906415,-0.00041572650661692023,-0.00024527384084649384,-6.612489960389212e-05,-4.538335360848578e-06,1.1290194557034283e-08,0.0,0.0,0.0,0.0,-0.01870758831501007,-0.02060665376484394
2994000,0.0,-0.004261057823896408,-0.002130528911948204,0.9999995231628418,0.00091192388208583,-0.00040564214577898383,-0.00026235621771775186,-6.632001168327406e-05,-7.4565632530720904e-06,1.6821802617528192e-08,0.0,0.0,0.0,0.0,-0.01724698767066002,-0.01776902563869953
3014000,0.004261057823896408,-0.004261057823896408,0.0,0.9999995231628418,0.0009227612754330039,-0.0004612165503203869,-0.0002751027059275657,-6.414243398467079e-05,-4.023331257485552e-06,8.312196264625982e-09,0.0,0.0,0.0,0.0,-0.022453686222434044,-0.023930491879582405
3034000,0.002130528911948204,-0.002130528911948204,0.0,0.9999993443489075,0.0009621835197322071,-0.0004279427812434733,-0.0002901034022215754,-6.65262559778057e-05,-1.0113242751685902e-05,2.1879767331256517e-08,0.0,0.0,0.0,0.0,-0.02348916418850422,-0.024257857352495193
3054000,0.004261057823896408,-0.0,-0.002130528911948204,0.9999993443489075,0.0009818453108891845,-0.00046823269804008305,-0.00030503113521263003,-6.778776150895283e-05,-8.632118806417566e-06,2.0475862783086995e-08,0.0,0.0,0.0,0.0,-0.02721119485795498,-0.02880719304084778
3074000,0.002130528911948204,-0.002130528911948204,0.002130528911948204,0.9999993443489075,0.0010274293599650264,-0.0004557898500934243,-0.000328544236253947,-7.057060429360718e-05,-1.2848131518694572e-05,3.163905759606678e-08,0.0,0.0,0.0,0.0,-0.022173859179019928,-0.01990511082112789
3094000,0.002130528911948204,-0.002130528911948204,-0.002130528911948204,0.9999992251396179,0.001085735741071403,-0.000536555249709636,-0.0003455986443441361,-7.462548819603398e-05,-8.807068297755904e-06,2.678662092137074e-08,0.0,0.0,0.0,0.0,-0.02011539600789547,-0.01640338823199272
3114000,0.002130528911948204,0.0,0.002130528911948204,0.9999992251396179,0.0010639544343575835,-0.0005202815518714488,-0.0003584162623155862,-7.109488069545478e-05,-1.2337858606770169e-05,3.087515665356477e-08,0.0,0.0,0.0,0.0,-0.019595544785261154,-0.014790560118854046
3134000,0.002130528911948204,-0.004261057823896408,-0.002130528911948204,0.9999992251396179,0.0011224497575312853,-0.0005022919503971934,-0.0003691652964334935,-7.601735705975443e-05,-1.668093682383187e-05,4.5519861657794536e-08,0.0,0.0,0.0,0.0,-0.025724802166223526,-0.02305636741220951
3154000,-0.004261057823896408,-0.002130528911948204,0.0,0.9999992251396179,0.001103450427763164,-0.0005460245301946998,-0.00039897055830806494,-7.255290256580338e-05,-1.463230455556186e-05,3.7487705384364745e-08,0.0,0.0,0.0,0.0,-0.027229707688093185,-0.02352847531437874
3174000,0.0,0.0,0.002130528911948204,0.9999992251396179,0.0011178344720974565,-0.0005616794805973768,-0.0004053871671203524,-7.200197433121502e-05,-1.5608819012413733e-05,3.900834499859229e-08,0.0,0.0,0.0,0.0,-0.025944849476218224,-0.02034948207437992
3194000,0.004261057823896408,0.0,-0.0,0.9999991059303284,0.0011725840158760548,-0.0006181540666148067,-0.000403267506044358,-7.655364606762305e-05,-1.2293346117075998e-05,3.698502837323758e-08,0.0,0.0,0.0,0.0,-0.021732985973358154,-0.013675831258296967
3214000,0.002130528911948204,-0.004261057823896408,-0.004261057823896408,0.9999991059303284,0.001162379514425993,-0.0005785889807157218,-0.00041402113856747746,-7.439043838530779e-05,-1.9426835933700204e-05,5.104345035533697e-08,0.0,0.0,0.0,0.0,-0.01901533268392086,-0.008908931165933609
3234000,0.004261057823896408,-0.002130528911948204,0.0,0.9999991655349731,0.0011038165539503098,-0.0005669899401254952,-0.0004374853742774576,-6.803412543376908e-05,-2.290389056724962e-05,5.184731932672548e-08,0.0,0.0,0.0,0.0,-0.022021237760782242,-0.011922119185328484
3254000,0.002130528911948204,-0.004261057823896408,-0.004261057823896408,0.9999991655349731,0.0010728929191827774,-0.0006421374855563045,-0.00046090976684354246,-6.423829472623765e-05,-1.9838269508909434e-05,4.0508272292072434e-08,0.0,0.0,0.0,0.0,-0.026286887004971504,-0.01693960651755333
3274000,0.004261057823896408,-0.002130528911948204,-0.002130528911948204,0.9999990463256836,0.001090441131964326,-0.0006897086277604103,-0.00047581244143657386,-6.401276186807081e-05,-1.7618203855818138e-05,3.5392652364407695e-08,0.0,0.0,0.0,0.0,-0.030088968575000763,-0.02158958464860916
3294000,0.0,-0.004261057823896408,0.002130528911948204,0.9999990463256836,0.0011181241134181619,-0.0007001574849709868,-0.0004780060553457588,-6.480087176896632e-05,-2.038998900388833e-05,4.235118922224501e-08,0.0,0.0,0.0,0.0,-0.02908674068748951,-0.01900412328541279
3314000,0.002130528911948204,-0.004261057823896408,-0.002130528911948204,0.9999991059303284,0.0010636018123477697,-0.0006954226992093027,-0.0004993247566744685,-5.8007393818115816e-05,-2.3818538466002792e-05,4.033993050711615e-08,0.0,0.0,0.0,0.0,-0.026757702231407166,-0.014644469134509563
3334000,-0.002130528911948204,0.0,-0.002130528911948204,0.9999989867210388,0.0010832056868821383,-0.0007291462970897555,-0.0005206664209254086,-5.9269714256515726e-05,-2.361643964832183e-05,4.165247702303532e-08,0.0,0.0,0.0,0.0,-0.02489376813173294,-0.011540989391505718
3354000,0.002130528911948204,0.0,-0.002130528911948204,0.9999989867210388,0.0011572539806365967,-0.0007207202143035829,-0.0005378112546168268,-6.469429354183376e-05,-2.7418662284617312e-05,5.804842828638357e-08,0.0,0.0,0.0,0.0,-0.03248089924454689,-0.02185174636542797
3374000,0.0,-0.004261057823896408,0.0,0.999998927116394,0.0011826063273474574,-0.0007226121379062533,-0.000552796118427068,-6.69492146698758e-05,-2.9756251024082303e-05,6.659181650547907e-08,0.0,0.0,0.0,0.0,-0.03441580384969711,-0.023509755730628967
3394000,0.002130528911948204,-0.006391586735844612,0.0,0.9999988675117493,0.0012241096701472998,-0.0007238430553115904,-0.0005635444540530443,-6.975422729738057e-05,-3.3224619983229786e-05,7.902213638999456e-08,0.0,0.0,0.0,0.0,-0.04085668548941612,-0.03166345879435539
3414000,0.0,-0.002130528911948204,0.0,0.9999988675117493,0.0012672041775658727,-0.0006897810962982476,-0.0005785480025224388,-7.185849244706333e-05,-3.851271321764216e-05,9.528390165769451e-08,0.0,0.0,0.0,0.0,-0.048024266958236694,-0.040410563349723816
3434000,0.006391586735844612,-0.004261057823896408,0.0,0.9999987483024597,0.0013193199411034584,-0.0007169889286160469,-0.0005850092275068164,-7.529377762693912e-05,-3.937708606827073e-05,1.0231565283902455e-07,0.0,0.0,0.0,0.0,-0.03927530720829964,-0.026595206931233406
3454000,0.002130528911948204,-0.006391586735844612,-0.002130528911948204,0.9999986290931702,0.001408555661328137,-0.0006575648440048099,-0.00058308633742854,-8.264395000878721e-05,-4.847775198868476e-05,1.3725919245644036e-07,0.0,0.0,0.0,0.0,-0.039253007620573044,-0.02478749305009842
3474000,0.002130528911948204,-0.002130528911948204,-0.002130528911948204,0.9999985694885254,0.0014165346510708332,-0.0006690075970254838,-0.0006023352616466582,-8.12288562883623e-05,-5.13286649947986e-05,1.4338837672767113e-07,0.0,0.0,0.0,0.0,-0.03197749704122543,-0.013254296965897083
3494000,0.004261057823896408,-0.006391586735844612,0.0,0.9999986886978149,0.0014012287138029933,-0.0006539003225043416,-0.000617317040450871,-7.812543481122702e-05,-5.5553300626343116e-05,1.5115578833047039e-07,0.0,0.0,0.0,0.0,-0.035325050354003906,-0.016913095489144325
3514000,0.002130528911948204,-0.0,-0.004261057823896408,0.9999985694885254,0.0014256639406085014,-0.0006398176774382591,-0.000632312789093703,-7.89965342846699e-05,-5.9248111938359216e-05,1.628693411248605e-07,0.0,0.0,0.0,0.0,-0.03630448132753372,-0.01736699417233467
3534000,0.002130528911948204,0.0,-0.006391586735844612,0.9999986886978149,0.0014164900640025735,-0.0006021902663633227,-0.0006452127709053457,-7.77848472353071e-05,-6.550201214849949e-05,1.7918813455253257e-07,0.0,0.0,0.0,0.0,-0.038683876395225525,-0.019720779731869698
3554000,0.0,-0.006391586735844612,-0.002130528911948204,0.9999985694885254,0.0014121376443654299,-0.0006264380062930286,-0.0006686776760034263,-7.535616168752313e-05,-6.620364001719281e-05,1.7825490772338526e-07,0.0,0.0,0.0,0.0,-0.035484421998262405,-0.013816987164318562
3574000,0.0,-0.002130528911948204,-0.004261057823896408,0.9999986886978149,0.0014015731867402792,-0.0005434024496935308,-0.0006922959582880139,-7.27273800293915e-05,-7.762664608890191e-05,2.0739143735681864e-07,0.0,0.0,0.0,0.0,-0.037058811634778976,-0.01506146602332592
3594000,0.0,-0.004261057823896408,-0.002130528911948204,0.9999986290931702,0.0013919573975726962,-0.0006214703898876905,-0.0007007582462392747,-7.084649405442178e-05,-7.20861426088959e-05,1.8977573290612781e-07,0.0,0.0,0.0,0.0,-0.033865030854940414,-0.009976913221180439
3614000,0.002130528911948204,-0.002130528911948204,-0.002130528911948204,0.9999987483024597,0.001364018302410841,-0.0005623817560262978,-0.0007115215994417667,-6.669941649306566e-05,-8.004413393791765e-05,2.0732828431846428e-07,0.0,0.0,0.0,0.0,-0.023234102874994278,0.006188034545630217
3634000,0.004261057823896408,-0.002130528911948204,0.0,0.9999987483024597,0.0013730119680985808,-0.000512114551384002,-0.0007372404215857387,-6.603426299989223e-05,-8.83910761331208e-05,2.298364591979407e-07,0.0,0.0,0.0,0.0,-0.025663893669843674,0.0032223137095570564
3654000,0.002130528911948204,-0.004261057823896408,-0.002130528911948204,0.9999987483024597,0.001344579621218145,-0.00048605966730974615,-0.0007543660467490554,-6.184561061672866e-05,-9.367170423502102e-05,2.3970054030542087e-07,0.0,0.0,0.0,0.0,-0.030798058956861496,-0.004004607442766428
3674000,0.002130528911948204,0.002130528911948204,-0.002130528911948204,0.9999986886978149,0.0013785206247121096,-0.00039976791595108807,-0.0007716036634519696,-6.410352216335014e-05,-0.00010475891758687794,2.722016461120802e-07,0.0,0.0,0.0,0.0,-0.037898071110248566,-0.013551253825426102
3694000,0.0,-0.002130528911948204,-0.004261057823896408,0.9999987483024597,0.001384363742545247,-0.00036365355481393635,-0.0007909088162705302,-6.3554965890944e-05,-0.00011145712051074952,2.900965512253606e-07,0.0,0.0,0.0,0.0,-0.040413547307252884,-0.01651492342352867
3714000,0.0,-0.004261057823896408,-0.002130528911948204,0.9999986290931702,0.0014051429461687803,-0.00034278264502063394,-0.0007931384607218206,-6.513961852760985e-05,-0.00011577473196666688,3.0342417289830337e-07,0.0,0.0,0.0,0.0,-0.03687067702412605,-0.010503167286515236
3734000,-0.002130528911948204,-0.002130528911948204,0.0,0.9999986290931702,0.0013763167662546039,-0.0003255383635405451,-0.0008166814222931862,-6.09135277045425e-05,-0.00012099573359591886,3.1531135391560383e-07,0.0,0.0,0.0,0.0,-0.03935656324028969,-0.013593565672636032
3754000,-0.002130528911948204,-0.006391586735844612,-0.002130528911948204,0.9999986290931702,0.0014289101818576455,-0.0003508648369461298,-0.0008230896783061326,-6.52596791042015e-05,-0.00011983620788669214,3.1470139560951793e-07,0.0,0.0,0.0,0.0,-0.04140166938304901,-0.015602619387209415
3774000,0.0,-0.002130528911948204,0.002130528911948204,0.9999985098838806,0.0014952627243474126,-0.0003578171890694648,-0.0008316785679198802,-6.969784590182826e-05,-0.00012136936857132241,3.2262582294606545e-07,0.0,0.0,0.0,0.0,-0.040618255734443665,-0.013327640481293201
3794000,0.0,-0.0,-0.002130528911948204,0.9999983906745911,0.0015235902974382043,-0.00036457832902669907,-0.0008466817089356482,-7.07559083821252e-05,-0.00012397882528603077,3.3120224429694645e-07,0.0,0.0,0.0,0.0,-0.03902948647737503,-0.010224886238574982
3814000,0.0,0.002130528911948204,-0.0,0.9999984502792358,0.0015053245006129146,-0.00036555255064740777,-0.0008552260114811361,-6.694276817142963e-05,-0.00012524513294920325,3.322429051877407e-07,0.0,0.0,0.0,0.0,-0.03926142677664757,-0.009757695719599724
3834000,0.002130528911948204,-0.004261057823896408,-0.002130528911948204,0.9999983906745911,0.0015313723124563694,-0.00037551947752945125,-0.0008744769729673862,-6.756233051419258e-05,-0.00012731734022963792,3.389427263300604e-07,0.0,0.0,0.0,0.0,-0.042627058923244476,-0.013196221552789211
3854000,-2.4671523571014404,-0.004261057823896408,0.0,0.9998758435249329,-0.015726279467344284,-0.0004077985358890146,-0.0008878028020262718,-6.930840027052909e-05,-0.00012563998461700976,3.351331372414279e-07,0.0,0.0,0.0,0.0,-0.03484319522976875,0.7309409379959106
3874000,-2.4714133739471436,-0.004261057823896408,0.002130528911948204,0.9991824626922607,-0.04041653126478195,-0.0004098825447726995,-0.0008844765252433717,-6.930840027052909e-05,-0.00012563998461700976,3.351331372414279e-07,0.0,0.0,0.0,0.0,-0.007253448944538832,1.620561957359314
3894000,-2.4714133739471436,-0.004261057823896408,0.0,0.9978790879249573,-0.06508851796388626,-0.00041388810495845973,-0.0008826504927128553,-6.930840027052909e-05,-0.00012563998461700976,3.351331372414279e-07,0.0,0.0,0.0,0.0,0.029991397634148598,2.497737407684326
3914000,-2.473544120788574,-0.006391586735844612,0.0,0.995965301990509,-0.08973352611064911,-0.0004374681448098272,-0.0008874367922544479,-6.930840027052909e-05,-0.00012563998461700976,3.351331372414279e-07,0.0,0.0,0.0,0.0,0.08682932704687119,3.376173973083496
3934000,-2.469282865524292,-0.002130528911948204,0.004261057823896408,0.9934459328651428,-0.1142982691526413,-0.0004435973532963544,-0.000891272269655019,-6.930840027052909e-05,-0.00012563998461700976,3.351331372414279e-07,0.0,0.0,0.0,0.0,0.16002169251441956,4.251345157623291
3954000,-2.469282865524292,-0.004261057823896408,0.002130528911948204,0.9903199672698975,-0.13879968225955963,-0.0004462541837710887,-0.0008861609385348856,-6.930840027052909e-05,-0.00012563998461700976,3.351331372414279e-07,0.0,0.0,0.0,0.0,0.2548025846481323,5.13092041015625
3974000,-2.469282865524292,0.0,0.002130528911948204,0.9865902066230774,-0.16321425139904022,-0.0004417262098286301,-0.0008772859582677484,-6.930840027052909e-05,-0.00012563998461700976,3.351331372414279e-07,0.0,0.0,0.0,0.0,0.3611314594745636,5.251585006713867
3994000,-2.4714133739471436,-0.004261057823896408,-0.002130528911948204,0.982258141040802,-0.18753136694431305,-0.000439081690274179,-0.0008673431584611535,-6.930840027052909e-05,-0.00012563998461700976,3.351331372414279e-07,0.0,0.0,0.0,0.0,0.46263691782951355,5.046074867248535
4014000,-2.469282865524292,0.0,0.004261057823896408,0.9773281812667847,-0.21172787249088287,-0.0004409420653246343,-0.0008605117909610271,-6.930840027052909e-05,-0.00012563998461700976,3.351331372414279e-07,0.0,0.0,0.0,0.0,0.5600808262825012,4.840869426727295
4034000,-2.469282865524292,-0.002130528911948204,0.004261057823896408,0.9718022346496582,-0.235795259475708,-0.00043403496965765953,-0.0008637425489723682,-6.930840027052909e-05,-0.00012563998461700976,3.351331372414279e-07,0.0,0.0,0.0,0.0,0.661827564239502,4.647891521453857
4054000,-2.4714133739471436,-0.002130528911948204,0.0,0.965679943561554,-0.2597332000732422,-0.0004356629215180874,-0.0008663435583002865,-6.930840027052909e-05,-0.00012563998461700976,3.351331372414279e-07,0.0,0.0,0.0,0.0,0.756447970867157,4.45028829574585
4074000,-2.469282865524292,0.0,0.0,0.9589710831642151,-0.28350237011909485,-0.00043425612966530025,-0.0008669908856973052,-6.930840027052909e-05,-0.00012563998461700976,3.351331372414279e-07,0.0,0.0,0.0,0.0,0.8347203731536865,4.235948085784912
4094000,-2.4714133739471436,0.0,0.002130528911948204,0.9516798257827759,-0.3070905804634094,-0.00043063596240244806,-0.0008678212761878967,-6.930840027052909e-05,-0.00012563998461700976,3.351331372414279e-07,0.0,0.0,0.0,0.0,0.9227169752120972,4.041472911834717
4114000,-2.4714133739471436,-0.002130528911948204,-0.002130528911948204,0.9438043236732483,-0.3305036127567291,-0.0004207543679513037,-0.0008766861283220351,-6.930840027052909e-05,-0.00012563998461700976,3.351331372414279e-07,0.0,0.0,0.0,0.0,1.0108366012573242,3.8533198833465576
4134000,-2.4714133739471436,-0.002130528911948204,0.0,0.9353558421134949,-0.35370704531669617,-0.00041908217826858163,-0.000870955060236156,-6.930840027052909e-05,-0.00012563998461700976,3.351331372414279e-07,0.0,0.0,0.0,0.0,1.0922510623931885,3.660745620727539
4154000,-2.469282865524292,-0.004261057823896408,0.004261057823896408,0.9263337850570679,-0.3767026662826538,-0.00042673369171097875,-0.0008541030692867935,-6.930840027052909e-05,-0.00012563998461700976,3.351331372414279e-07,0.0,0.0,0.0,0.0,1.1669790744781494,3.4646191596984863
4174000,-2.4714133739471436,0.0,0.002130528911948204,0.9167440533638,-0.39947426319122314,-0.00041879434138536453,-0.0008383821696043015,-6.930840027052909e-05,-0.00012563998461700976,3.351331372414279e-07,0.0,0.0,0.0,0.0,1.2271777391433716,3.254002332687378
4194000,-2.4714133739471436,-0.004261057823896408,0.002130528911948204,0.9065971970558167,-0.42199623584747314,-0.0004195041547063738,-0.000831879093311727,-6.930840027052909e-05,-0.00012563998461700976,3.351331372414279e-07,0.0,0.0,0.0,0.0,1.2916903495788574,3.0557353496551514
4214000,-2.473544120788574,-0.002130528911948204,0.004261057823896408,0.8959009051322937,-0.44425299763679504,-0.0004199947288725525,-0.0008299521869048476,-6.930840027052909e-05,-0.00012563998461700976,3.351331372414279e-07,0.0,0.0,0.0,0.0,1.3548921346664429,2.8608484268188477
4234000,-2.4714133739471436,-0.004261057823896408,0.0,0.8846553564071655,-0.46624457836151123,-0.00042590583325363696,-0.00082927115727216,-6.930840027052909e-05,-0.00012563998461700976,3.351331372414279e-07,0.0,0.0,0.0,0.0,1.4014976024627686,2.648359775543213
4254000,-2.473544120788574,0.002130528911948204,0.004261057823896408,0.8728681206703186,-0.4879554212093353,-0.0004113430914003402,-0.000821958645246923,-6.930840027052909e-05,-0.00012563998461700976,3.351331372414279e-07,0.0,0.0,0.0,0.0,1.4533913135528564,2.4499316215515137
4274000,-2.4714133739471436,-0.004261057823896408,-0.002130528911948204,0.8605492115020752,-0.5093666315078735,-0.00040887336945161223,-0.0008315343293361366,-6.930840027052909e-05,-0.00012563998461700976,3.351331372414279e-07,0.0,0.0,0.0,0.0,1.4957735538482666,2.243311882019043
4294000,-2.469282865524292,-0.004261057823896408,0.0,0.8477062582969666,-0.5304652452468872,-0.0004078360798303038,-0.0008223114418797195,-6.930840027052909e-05,-0.00012563998461700976,3.351331372414279e-07,0.0,0.0,0.0,0.0,1.5383380651474,2.043450355529785
4314000,-2.4671523571014404,-0.002130528911948204,0.002130528911948204,0.8343496918678284,-0.5512349605560303,-0.0004110722220502794,-0.0007998605724424124,-6.930840027052909e-05,-0.00012563998461700976,3.351331372414279e-07,0.0,0.0,0.0,0.0,1.5759351253509521,1.8429384231567383
4334000,-2.4714133739471436,-0.002130528911948204,0.002130528911948204,0.8204807043075562,-0.5716736316680908,-0.0003970870457123965,-0.0007905319216661155,-6.930840027052909e-05,-0.00012563998461700976,3.351331372414279e-07,0.0,0.0,0.0,0.0,1.6125904321670532,1.6466293334960938
4354000,-2.469282865524292,0.0,0.004261057823896408,0.8061136603355408,-0.5917601585388184,-0.0003906741621904075,-0.0007804916240274906,-6.930840027052909e-05,-0.00012563998461700976,3.351331372414279e-07,0.0,0.0,0.0,0.0,1.645146131515503,1.4506709575653076
4374000,-2.469282865524292,-0.004261057823896408,0.002130528911948204,0.791249692440033,-0.6114925742149353,-0.0003803888102993369,-0.0007646738085895777,-6.930840027052909e-05,-0.00012563998461700976,3.351331372414279e-07,0.0,0.0,0.0,0.0,1.6634835004806519,1.2405182123184204
4394000,-2.469282865524292,-0.006391586735844612,0.0,0.7759110331535339,-0.630841851234436,-0.0003710481687448919,-0.0007500941283069551,-6.930840027052909e-05,-0.00012563998461700976,3.351331372414279e-07,0.0,0.0,0.0,0.0,1.6882479190826416,1.0451477766036987
4414000,-2.469282865524292,0.0,0.004261057823896408,0.7601019740104675,-0.6498032212257385,-0.00036713751615025103,-0.0007386368233710527,-6.930840027052909e-05,-0.00012563998461700976,3.351331372414279e-07,0.0,0.0,0.0,0.0,1.7059526443481445,0.8452677726745605
4434000,-2.4714133739471436,-0.006391586735844612,0.0,0.7438242435455322,-0.6683749556541443,-0.0003738464438356459,-0.0007230819319374859,-6.930840027052909e-05,-0.00012563998461700976,3.351331372414279e-07,0.0,0.0,0.0,0.0,1.7262802124023438,0.655339777469635
4454000,-2.469282865524292,0.0,0.002130528911948204,0.7270941138267517,-0.6865373253822327,-0.00037021038588136435,-0.0007021120982244611,-6.930840027052909e-05,-0.00012563998461700976,3.351331372414279e-07,0.0,0.0,0.0,0.0,1.7368946075439453,0.45748865604400635
4474000,-2.4671523571014404,-0.002130528911948204,0.0,0.7099100947380066,-0.7042918801307678,-0.0003663390234578401,-0.0006838162080384791,-6.930840027052909e-05,-0.00012563998461700976,3.351331372414279e-07,0.0,0.0,0.0,0.0,1.7405014038085938,0.2553600072860718
4494000,-2.469282865524292,0.002130528911948204,0.0,0.6922973990440369,-0.7216119766235352,-0.0003577944007702172,-0.0006665621185675263,-6.930840027052909e-05,-0.00012563998461700976,3.351331372414279e-07,0.0,0.0,0.0,0.0,1.747459888458252,0.06417471915483475
4514000,-2.469282865524292,-0.002130528911948204,0.002130528911948204,0.6742621064186096,-0.7384917140007019,-0.00034575758036226034,-0.0006489402148872614,-6.930840027052909e-05,-0.00012563998461700976,3.351331372414279e-07,0.0,0.0,0.0,0.0,1.7427399158477783,-0.13801556825637817
4534000,-2.4714133739471436,-0.004261057823896408,0.002130528911948204,0.6558042764663696,-0.7549307346343994,-0.00034228726872242987,-0.0006245627882890403,-6.930840027052909e-05,-0.00012563998461700976,3.351331372414279e-07,0.0,0.0,0.0,0.0,1.729414463043213,-0.3460506498813629
4554000,-2.473544120788574,0.0,-0.002130528911948204,0.6369637250900269,-0.7708935141563416,-0.0003414649982005358,-0.0006191038992255926,-6.930840027052909e-05,-0.00012563998461700976,3.351331372414279e-07,0.0,0.0,0.0,0.0,1.7226121425628662,-0.5387989282608032
4574000,-2.469282865524292,0.0,0.002130528911948204,0.6177330613136292,-0.7863875031471252,-0.0003347104648128152,-0.0006002504378557205,-6.930840027052909e-05,-0.00012563998461700976,3.351331372414279e-07,0.0,0.0,0.0,0.0,1.7029474973678589,-0.7438074946403503
4594000,-2.4714133739471436,-0.002130528911948204,0.002130528911948204,0.5981121063232422,-0.8014121055603027,-0.0003247228160034865,-0.0005812869057990611,-6.930840027052909e-05,-0.00012563998461700976,3.351331372414279e-07,0.0,0.0,0.0,0.0,1.6843841075897217,-0.9417213797569275
4614000,-2.469282865524292,-0.002130528911948204,0.002130528911948204,0.5781363248825073,-0.8159399032592773,-0.00032431285944767296,-0.0005561479483731091,-6.930840027052909e-05,-0.00012563998461700976,3.351331372414279e-07,0.0,0.0,0.0,0.0,1.6648088693618774,-1.1349525451660156
4634000,-2.469282865524292,-0.006391586735844612,0.002130528911948204,0.5578025579452515,-0.829973578453064,-0.0003208800626453012,-0.0005415591294877231,-6.930840027052909e-05,-0.00012563998461700976,3.351331372414279e-07,0.0,0.0,0.0,0.0,1.6393241882324219,-1.3303065299987793
4654000,-2.473544120788574,-0.002130528911948204,0.004261057823896408,0.5371281504631042,-0.8435004949569702,-0.0003097173466812819,-0.0005267162341624498,-6.930840027052909e-05,-0.00012563998461700976,3.351331372414279e-07,0.0,0.0,0.0,0.0,1.6112098693847656,-1.5240198373794556
4674000,-2.473544120788574,-0.004261057823896408,-0.002130528911948204,0.5161333084106445,-0.8565081357955933,-0.0003041053132619709,-0.0005025863647460938,-6.930840027052909e-05,-0.00012563998461700976,3.351331372414279e-07,0.0,0.0,0.0,0.0,1.578141450881958,-1.7192246913909912
4694000,-2.473544120788574,0.0,0.0,0.4948124289512634,-0.8689996004104614,-0.00028985083918087184,-0.0004804192576557398,-6.930840027052909e-05,-0.00012563998461700976,3.351331372414279e-07,0.0,0.0,0.0,0.0,1.5398378372192383,-1.9161463975906372
4714000,-2.4714133739471436,-0.004261057823896408,0.0,0.47320273518562317,-0.8809534311294556,-0.00029148621251806617,-0.0004548891447484493,-6.930840027052909e-05,-0.00012563998461700976,3.351331372414279e-07,0.0,0.0,0.0,0.0,1.492846965789795,-2.11889386177063
4734000,-2.469282865524292,-0.002130528911948204,0.002130528911948204,0.45129474997520447,-0.8923748135566711,-0.00028802905580960214,-0.0004339354927651584,-6.930840027052909e-05,-0.00012563998461700976,3.351331372414279e-07,0.0,0.0,0.0,0.0,1.446429967880249,-2.315068244934082
4754000,-2.473544120788574,-0.004261057823896408,0.0,0.4291151762008667,-0.9032496213912964,-0.00028908110107295215,-0.0004220452392473817,-6.930840027052909e-05,-0.00012563998461700976,3.351331372414279e-07,0.0,0.0,0.0,0.0,1.3987081050872803,-2.507441759109497
4774000,-2.4671523571014404,-0.004261057823896408,0.004261057823896408,0.40667760372161865,-0.9135716557502747,-0.00026499159866943955,-0.0004074749886058271,-6.930840027052909e-05,-0.00012563998461700976,3.351331372414279e-07,0.0,0.0,0.0,0.0,1.3460476398468018,-2.7004661560058594
4794000,-2.473544120788574,-0.004261057823896408,0.002130528911948204,0.3839900493621826,-0.9233371019363403,-0.000253683072514832,-0.00038450758438557386,-6.930840027052909e-05,-0.00012563998461700976,3.351331372414279e-07,0.0,0.0,0.0,0.0,1.293436884880066,-2.8886895179748535
4814000,-2.469282865524292,-0.002130528911948204,0.0,0.3610662817955017,-0.9325401186943054,-0.00024401512928307056,-0.00036878036917187274,-6.930840027052909e-05,-0.00012563998461700976,3.351331372414279e-07,0.0,0.0,0.0,0.0,1.2322723865509033,-3.0831363201141357
4834000,-2.469282865524292,-0.006391586735844612,0.0,0.3379141092300415,-0.9411768317222595,-0.00024858067627064884,-0.00034476755536161363,-6.930840027052909e-05,-0.00012563998461700976,3.351331372414279e-07,0.0,0.0,0.0,0.0,1.1717886924743652,-3.2707278728485107
4854000,-2.469282865524292,-0.002130528911948204,0.0,0.31456977128982544,-0.9492343068122864,-0.00024077596026472747,-0.0003297102521173656,-6.930840027052909e-05,-0.00012563998461700976,3.351331372414279e-07,0.0,0.0,0.0,0.0,1.1063976287841797,-3.459357500076294
4874000,-2.469282865524292,-0.006391586735844612,0.0,0.29102545976638794,-0.9567152261734009,-0.00023405895626638085,-0.00031035239226184785,-6.930840027052909e-05,-0.00012563998461700976,3.351331372414279e-07,0.0,0.0,0.0,0.0,1.0351608991622925,-3.650460958480835
4894000,-2.469282865524292,-0.006391586735844612,0.002130528911948204,0.2673035264015198,-0.96361243724823,-0.00023068020527716726,-0.0002941689162980765,-6.930840027052909e-05,-0.00012563998461700976,3.351331372414279e-07,0.0,0.0,0.0,0.0,0.9629238247871399,-3.8377137184143066
4914000,-2.469282865524292,-0.004261057823896408,0.002130528911948204,0.24341630935668945,-0.969921886920929,-0.0002174359542550519,-0.0002729471889324486,-6.930840027052909e-05,-0.00012563998461700976,3.351331372414279e-07,0.0,0.0,0.0,0.0,0.8821473717689514,-4.031014919281006
4934000,-2.469282865524292,0.0,0.004261057823896408,0.2193993330001831,-0.9756351709365845,-0.00020632290397770703,-0.0002608846116345376,-6.930840027052909e-05,-0.00012563998461700976,3.351331372414279e-07,0.0,0.0,0.0,0.0,0.7974444031715393,-4.2245564460754395
4954000,-2.4714133739471436,-0.002130528911948204,0.002130528911948204,0.19523605704307556,-0.9807562828063965,-0.00019004382193088531,-0.00024099861911963671,-6.930840027052909e-05,-0.00012563998461700976,3.351331372414279e-07,0.0,0.0,0.0,0.0,0.7148699760437012,-4.4094038009643555
4974000,-2.4671523571014404,-0.004261057823896408,0.002130528911948204,0.17095784842967987,-0.9852783679962158,-0.00018205016385763884,-0.00022268126485869288,-6.930840027052909e-05,-0.00012563998461700976,3.351331372414279e-07,0.0,0.0,0.0,0.0,0.6259362697601318,-4.5977702140808105
4994000,-2.4714133739471436,0.0,0.0,0.1465669423341751,-0.98920077085495,-0.00017298696911893785,-0.00021050692885182798,-6.930840027052909e-05,-0.00012563998461700976,3.351331372414279e-07,0.0,0.0,0.0,0.0,0.5294560194015503,-4.790626525878906
5014000,-2.469282865524292,-0.002130528911948204,0.0,0.12208666652441025,-0.9925194382667542,-0.00015806994633749127,-0.00019282651192042977,-6.930840027052909e-05,-0.00012563998461700976,3.351331372414279e-07,0.0,0.0,0.0,0.0,0.43143072724342346,-4.980062007904053
5034000,-2.469282865524292,-0.002130528911948204,0.004261057823896408,0.097536101937294,-0.9952319860458374,-0.00014903447299730033,-0.0001782223698683083,-6.930840027052909e-05,-0.00012563998461700976,3.351331372414279e-07,0.0,0.0,0.0,0.0,0.3291788399219513,-5.170016765594482
5054000,-2.473544120788574,-0.002130528911948204,0.002130528911948204,0.07291966676712036,-0.997337818145752,-0.0001337571447947994,-0.0001626800949452445,-6.930840027052909e-05,-0.00012563998461700976,3.351331372414279e-07,0.0,0.0,0.0,0.0,0.22506335377693176,-5.356830596923828
5074000,-2.469282865524292,-0.002130528911948204,0.002130528911948204,0.04826507717370987,-0.9988345503807068,-0.00013229604519437999,-0.00015895125397946686,-6.930840027052909e-05,-0.00012563998461700976,3.351331372414279e-07,0.0,0.0,0.0,0.0,0.10556553304195404,-5.559844017028809
5094000,-2.473544120788574,-0.002130528911948204,0.002130528911948204,0.023572521284222603,-0.9997221827507019,-0.00011875036580022424,-0.00014152885705698282,-6.930840027052909e-05,-0.00012563998461700976,3.351331372414279e-07,0.0,0.0,0.0,0.0,-0.007492140866816044,-5.747282028198242
5114000,-0.002130528911948204,0.0,-0.004261057823896408,0.002433699555695057,-0.9999966025352478,-0.0001169162496807985,-0.0010410088580101728,-6.77570715197362e-05,-0.0001253173832083121,3.3679199873404286e-07,0.0,0.0,0.0,0.0,-0.11930488795042038,-5.286144733428955
5134000,0.002130528911948204,-0.004261057823896408,0.002130528911948204,0.0023267113137990236,-0.9999969005584717,-0.00011910643661394715,-0.0009456132538616657,-5.486882582772523e-05,-0.0001184219800052233,3.310306624371151e-07,0.0,0.0,0.0,0.0,-0.2244664579629898,-5.285768985748291
5154000,0.0,-0.004261057823896408,0.0,0.002189639024436474,-0.9999972581863403,-0.00013837737787980586,-0.0008643473265692592,-4.047686161356978e-05,-0.00011336883471813053,3.3426570666961197e-07,0.0,0.0,0.0,0.0,-0.3105366826057434,-5.258706092834473
5174000,0.0,-0.002130528911948204,0.002130528911948204,0.002115478739142418,-0.9999974966049194,-0.000153372049680911,-0.0008304946240969002,-3.13222044496797e-05,-0.00011135885870316997,3.408999305065663e-07,0.0,0.0,0.0,0.0,-0.40589553117752075,-5.245156764984131
5194000,0.002130528911948204,-0.006391586735844612,-0.002130528911948204,0.002041276777163148,-0.9999975562095642,-0.00017478319932706654,-0.0007819002494215965,-2.3451566448784433e-05,-0.00010979243961628526,3.4696682860158035e-07,0.0,0.0,0.0,0.0,-0.48369133472442627,-5.207240581512451
5214000,0.002130528911948204,-0.004261057823896408,-0.004261057823896408,0.001890303916297853,-0.9999979734420776,-0.0001877911709016189,-0.0007539005600847304,-6.210467745404458e-06,-0.00011007140710717067,3.755617967726721e-07,0.0,0.0,0.0,0.0,-0.5572593808174133,-5.164816379547119
5234000,0.004261057823896408,-0.004261057823896408,0.0,0.0017902530962601304,-0.999998152256012,-0.00020707778458017856,-0.0006710096495226026,5.282675374473911e-06,-0.00010635651415213943,3.7817724773958616e-07,0.0,0.0,0.0,0.0,-0.6233808398246765,-5.1124958992004395
5254000,0.004261057823896408,-0.0,-0.002130528911948204,0.0016775840194895864,-0.9999983906745911,-0.00022423533664550632,-0.0006422871956601739,1.8238171833218075e-05,-0.00010529068094911054,3.916026400929695e-07,0.0,0.0,0.0,0.0,-0.6889235377311707,-5.0611090660095215
5274000,0.006391586735844612,-0.002130528911948204,0.0,0.0015282207168638706,-0.9999986290931702,-0.0002520884736441076,-0.0005963773583061993,3.676586857181974e-05,-0.00010335620027035475,4.0890685681915784e-07,0.0,0.0,0.0,0.0,-0.7579559683799744,-5.01679801940918
5294000,0.0,-0.004261057823896408,-0.002130528911948204,0.0014342828653752804,-0.9999987483024597,-0.0002585695474408567,-0.0005496546509675682,4.675542004406452e-05,-0.00010177271178690717,4.1602211808822176e-07,0.0,0.0,0.0,0.0,-0.8188365697860718,-4.961540222167969
5314000,-0.002130528911948204,-0.002130528911948204,0.0,0.0012869650963693857,-0.9999990463256836,-0.0002671420807018876,-0.0004897865001112223,6.249521538848057e-05,-9.717201464809477e-05,4.204135848340229e-07,0.0,0.0,0.0,0.0,-0.8788172602653503,-4.9065470695495605
5334000,0.002130528911948204,-0.002130528911948204,-0.002130528911948204,0.0012071288656443357,-0.9999992251396179,-0.000282162829535082,-0.00046914772246964276,7.190165342763066e-05,-9.82028286671266e-05,4.31836582492906e-07,0.0,0.0,0.0,0.0,-0.9284124374389648,-4.838363170623779
5354000,0.002130528911948204,-0.0,0.0,0.0011174525134265423,-0.9999992847442627,-0.0002970875648315996,-0.00035269532236270607,8.142693695845082e-05,-9.093454718822613e-05,4.225319401029992e-07,0.0,0.0,0.0,0.0,-0.9740029573440552,-4.766905307769775
5374000,0.002130528911948204,-0.008522115647792816,-0.002130528911948204,0.0010628850432112813,-0.9999993443489075,-0.0003141775378026068,-0.00027261159266345203,8.871217141859233e-05,-8.752127905609086e-05,4.1978776721407485e-07,0.0,0.0,0.0,0.0,-1.015488862991333,-4.691671371459961
5394000,0.0,-0.0,-0.004261057823896408,0.0009845133172348142,-0.999999463558197,-0.0003269543230999261,-0.0001813539711292833,9.709332516649738e-05,-8.15033054095693e-05,4.109196538593096e-07,0.0,0.0,0.0,0.0,-1.051706314086914,-4.61124849319458
5414000,0.002130528911948204,-0.004261057823896408,-0.002130528911948204,0.0009037551353685558,-0.9999995827674866,-0.0003525715437717736,-0.00015991234977263957,0.00010549219587119296,-8.204108598874882e-05,4.1506504544486233e-07,0.0,0.0,0.0,0.0,-1.0856393575668335,-4.529967784881592
5434000,0.0,-0.002130528911948204,-0.004261057823896408,0.0008188729407265782,-0.9999997019767761,-0.000363262981409207,-0.00011604306928347796,0.00011535984958754852,-8.097753016045317e-05,4.158414697030821e-07,0.0,0.0,0.0,0.0,-1.117929220199585,-4.448520660400391
5454000,0.004261057823896408,-0.006391586735844612,-0.006391586735844612,0.0007195916259661317,-0.9999997019767761,-0.0003867163322865963,-6.580009358003736e-05,0.0001260175631614402,-7.863742939662188e-05,4.141932379297941e-07,0.0,0.0,0.0,0.0,-1.1447433233261108,-4.361222743988037
5474000,0.0,-0.0,-0.002130528911948204,0.0006500062881968915,-0.9999997019767761,-0.0004144387203268707,-5.5478485592175275e-05,0.00013369819498620927,-7.944028038764372e-05,4.1588077692722436e-07,0.0,0.0,0.0,0.0,-1.171059250831604,-4.275746822357178
5494000,0.004261057823896408,0.0,-0.0,0.0005733376019634306,-0.9999997019767761,-0.0004251231730449945,-4.211684063193388e-05,0.00014378194464370608,-8.036323561100289e-05,4.183500834642473e-07,0.0,0.0,0.0,0.0,-1.1875872611999512,-4.179137229919434
5514000,0.002130528911948204,-0.004261057823896408,0.0,0.0004983918042853475,-0.9999998211860657,-0.00043367507169023156,-4.552850077743642e-05,0.00015240645734593272,-8.253707346739247e-05,4.2141115841332066e-07,0.0,0.0,0.0,0.0,-1.2071436643600464,-4.089452743530273
5534000,0.002130528911948204,-0.002130528911948204,0.0,0.000451816275017336,-0.9999998211860657,-0.0004422188503667712,-3.92619040212594e-05,0.000158185328473337,-8.374194294447079e-05,4.23042507691207e-07,0.0,0.0,0.0,0.0,-1.224042534828186,-3.9986379146575928
5554000,0.0,-0.002130528911948204,-0.002130528911948204,0.0004160685057286173,-0.9999998211860657,-0.0004486090620048344,5.4117706895340234e-05,0.0001618067326489836,-7.81582566560246e-05,4.188320019693492e-07,0.0,0.0,0.0,0.0,-1.235621690750122,-3.902627944946289
5574000,0.002130528911948204,-0.0,-0.004261057823896408,0.00038376712473109365,-0.9999998211860657,-0.00045074327499605715,9.270868758903816e-05,0.00016657450760249048,-7.656350499019027e-05,4.171613738890301e-07,0.0,0.0,0.0,0.0,-1.2481186389923096,-3.810023546218872
5594000,0.002130528911948204,-0.002130528911948204,-0.002130528911948204,0.00038532010512426496,-0.9999998211860657,-0.00046353688230738044,0.00011693791020661592,0.00016902062634471804,-7.683223520871252e-05,4.16778760836678e-07,0.0,0.0,0.0,0.0,-1.2533092498779297,-3.7103724479675293
5614000,0.002130528911948204,-0.006391586735844612,-0.004261057823896408,0.0003643478557933122,-0.9999998211860657,-0.0004848761309403926,9.79629039647989e-05,0.00017222670430783182,-8.226982754422352e-05,4.202768195682438e-07,0.0,0.0,0.0,0.0,-1.2591838836669922,-3.614820718765259
5634000,0.002130528911948204,0.0,-0.0,0.0002876428479794413,-0.9999999403953552,-0.0004849062243010849,6.559651956195012e-05,0.0001807868102332577,-8.861105743562803e-05,4.2346022155470564e-07,0.0,0.0,0.0,0.0,-1.2612032890319824,-3.5159761905670166
5654000,0.004261057823896408,-0.004261057823896408,-0.002130528911948204,0.0002810786827467382,-0.9999999403953552,-0.0005019818199798465,4.2652925912989303e-05,0.00018275552429258823,-9.443493036087602e-05,4.2689029555731395e-07,0.0,0.0,0.0,0.0,-1.2610440254211426,-3.417088508605957
5674000,0.002130528911948204,0.002130528911948204,-0.002130528911948204,0.00016140980005729944,-0.9999999403953552,-0.0005105072050355375,5.6851487897802144e-05,0.00019495755259413272,-9.54714632825926e-05,4.2551528167678043e-07,0.0,0.0,0.0,0.0,-1.2610704898834229,-3.3209166526794434
5694000,0.0,-0.004261057823896408,-0.002130528911948204,7.057352922856808e-05,-0.9999999403953552,-0.0005254182615317404,0.0001053099476848729,0.0002038386883214116,-9.393630170961842e-05,4.233562265198998e-07,0.0,0.0,0.0,0.0,-1.2642004489898682,-3.2321159839630127
5714000,0.002130528911948204,-0.002130528911948204,0.0,3.656042827060446e-05,-0.9999999403953552,-0.0005318105104379356,9.341913391835988e-05,0.00020873786706943065,-9.737101208884269e-05,4.2268013089596934e-07,0.0,0.0,0.0,0.0,-1.2608542442321777,-3.137223482131958
5734000,0.0,-0.002130528911948204,0.0,-4.779222217621282e-05,-0.9999999403953552,-0.0005403285613283515,0.00011355096648912877,0.00021887602633796632,-9.887533815344796e-05,4.2128755239900784e-07,0.0,0.0,0.0,0.0,-1.2468485832214355,-3.0298027992248535
5754000,0.002130528911948204,-0.002130528911948204,-0.002130528911948204,-5.283841164782643e-05,-0.9999998211860657,-0.0005573747330345213,0.00017344500520266593,0.00021979762823320925,-9.619676711736247e-05,4.212698740957421e-07,0.0,0.0,0.0,0.0,-1.2415430545806885,-2.9371724128723145
5774000,0.002130528911948204,-0.0,-0.004261057823896408,-0.00012053613318130374,-0.9999998211860657,-0.0005807960405945778,0.00021815928630530834,0.00022761945729143918,-9.460921137360856e-05,4.184099111625983e-07,0.0,0.0,0.0,0.0,-1.2362672090530396,-2.8476369380950928
5794000,0.004261057823896408,-0.002130528911948204,-0.002130528911948204,-0.0001769080408848822,-0.9999998211860657,-0.0005978159606456757,0.00024894249509088695,0.00023515379871241748,-9.569313260726631e-05,4.1479921719655977e-07,0.0,0.0,0.0,0.0,-1.227746844291687,-2.755635976791382
5814000,0.0,-0.004261057823896408,0.0,-0.00020459832740016282,-0.9999998211860657,-0.0006169796106405556,0.000242683119722642,0.00023747250088490546,-9.877761476673186e-05,4.125314205793984e-07,0.0,0.0,0.0,0.0,-1.2212690114974976,-2.6696395874023438
5834000,0.002130528911948204,-0.002130528911948204,0.0,-0.00023976324882823974,-0.9999998211860657,-0.0006318758241832256,0.0002471364277880639,0.00024224135268013924,-9.972393308999017e-05,4.0942251189335366e-07,0.0,0.0,0.0,0.0,-1.2066208124160767,-2.5740280151367188
5854000,0.0,-0.002130528911948204,-0.002130528911948204,-0.00023567363678012043,-0.9999998211860657,-0.0006489003426395357,0.00023590779164806008,0.00024286848201882094,-0.00010436806769575924,4.0688107105779636e-07,0.0,0.0,0.0,0.0,-1.1880074739456177,-2.4754550457000732
5874000,0.0,-0.006391586735844612,-0.002130528911948204,-0.00023918265651445836,-0.9999998211860657,-0.0006574282888323069,0.0002907015150412917,0.00024382364063058048,-0.00010027915413957089,4.0825682390277507e-07,0.0,0.0,0.0,0.0,-1.1773282289505005,-2.3906478881835938
5894000,0.004261057823896408,-0.006391586735844612,0.0,-0.00021798844682052732,-0.9999997019767761,-0.0006744587444700301,0.0003264376719016582,0.00024380223476327956,-0.00010086900874739513,4.0795956124384247e-07,0.0,0.0,0.0,0.0,-1.1523228883743286,-2.2887229919433594
5914000,0.004261057823896408,0.002130528911948204,-0.002130528911948204,-0.0002736856113187969,-0.9999997019767761,-0.000691467837896198,0.0003063975600525737,0.0002506186719983816,-0.00010425967047922313,4.01668444283132e-07,0.0,0.0,0.0,0.0,-1.1250098943710327,-2.1865689754486084
5934000,-0.002130528911948204,-0.004261057823896408,-0.004261057823896408,-0.0003490567614790052,-0.9999997019767761,-0.0007255040109157562,0.0002651578397490084,0.000258968910202384,-0.00011125334276584908,3.9269795593099843e-07,0.0,0.0,0.0,0.0,-1.098597526550293,-2.0881340503692627
5954000,0.002130528911948204,0.0,0.002130528911948204,-0.00041531259194016457,-0.9999995827674866,-0.0007318806601688266,0.00031090006814338267,0.00026554096257314086,-0.00010933259181911126,3.9096437376429094e-07,0.0,0.0,0.0,0.0,-1.0797573328018188,-2.0028083324432373
5974000,0.0,-0.004261057823896408,-0.002130528911948204,-0.00042294382001273334,-0.9999995827674866,-0.0007531557930633426,0.0003236460033804178,0.0002677429001778364,-0.00011156871187267825,3.878642473864602e-07,0.0,0.0,0.0,0.0,-1.054154634475708,-1.9110594987869263
5994000,0.004261057823896408,-0.006391586735844612,0.0,-0.00040253621409647167,-0.9999995827674866,-0.0007723266026005149,0.0003421827277634293,0.0002656470751389861,-0.0001123748006648384,3.885293438088411e-07,0.0,0.0,0.0,0.0,-1.0275440216064453,-1.8204413652420044
6014000,0.002130528911948204,-0.002130528911948204,0.002130528911948204,-0.00046023266622796655,-0.9999995827674866,-0.0007893301080912352,0.00035221598227508366,0.0002717875177040696,-0.00011444985284470022,3.8245917721724254e-07,0.0,0.0,0.0,0.0,-1.012780785560608,-1.7483839988708496
6034000,-0.002130528911948204,0.0,-0.004261057823896408,-0.00045578129356727004,-0.9999995827674866,-0.0008084719884209335,0.000353448063833639,0.00027234983281232417,-0.0001178333186544478,3.789884885918582e-07,0.0,0.0,0.0,0.0,-0.994647741317749,-1.6744768619537354
6054000,0.0,-0.006391586735844612,-0.002130528911948204,-0.0004387088702060282,-0.9999995827674866,-0.000827646057587117,0.00039746961556375027,0.000271859229542315,-0.00011587254266487435,3.811560418398585e-07,0.0,0.0,0.0,0.0,-0.9781777262687683,-1.6047534942626953
6074000,0.0,-0.002130528911948204,-0.002130528911948204,-0.0004411348490975797,-0.999999463558197,-0.0008446473511867225,0.00038793327985331416,0.0002728948893491179,-0.0001207556197186932,3.759876108233584e-07,0.0,0.0,0.0,0.0,-0.9560384154319763,-1.5283570289611816
6094000,0.004261057823896408,-0.004261057823896408,-0.002130528911948204,-0.0004464634694159031,-0.999999463558197,-0.0008659251034259796,0.00043001610902138054,0.00027485640021041036,-0.00012047640484524891,3.7438090316754824e-07,0.0,0.0,0.0,0.0,-0.9378104209899902,-1.4599560499191284
6114000,0.002130528911948204,-0.004261057823896408,-0.002130528911948204,-0.0004474250308703631,-0.999999463558197,-0.0008829602738842368,0.0004363868501968682,0.00027531496016308665,-0.00012121030158596113,3.7343332337513857e-07,0.0,0.0,0.0,0.0,-0.9123252034187317,-1.3832193613052368
6134000,0.002130528911948204,-0.002130528911948204,0.004261057823896408,-0.00046096404548734426,-0.999999463558197,-0.0008935867808759212,0.0004610035102814436,0.000277243583695963,-0.00012203569349367172,3.709568545673392e-07,0.0,0.0,0.0,0.0,-0.8908299207687378,-1.314271330833435
6154000,0.002130528911948204,-0.002130528911948204,-0.002130528911948204,-0.0004591015458572656,-0.9999993443489075,-0.0008978212717920542,0.0004838056047447026,0.0002782698138616979,-0.0001230426860274747,3.690719267979148e-07,0.0,0.0,0.0,0.0,-0.865940272808075,-1.2428196668624878
6174000,0.004261057823896408,-0.004261057823896408,0.0,-0.0004876835155300796,-0.9999993443489075,-0.000906303699593991,0.0005253241979517043,0.00028254828066565096,-0.000122388155432418,3.651899760370725e-07,0.0,0.0,0.0,0.0,-0.840657114982605,-1.1725871562957764
6194000,0.0,-0.004261057823896408,-0.002130528911948204,-0.0004952927702106535,-0.9999993443489075,-0.0009318437078036368,0.0005565833416767418,0.00028472908888943493,-0.00012191012501716614,3.6329706176729815e-07,0.0,0.0,0.0,0.0,-0.8133187890052795,-1.1014407873153687
6214000,0.002130528911948204,-0.004261057823896408,-0.002130528911948204,-0.0005198371945880353,-0.9999993443489075,-0.0009531179093755782,0.0005672814440913498,0.00028732322971336544,-0.00012327254808042198,3.590212145354599e-07,0.0,0.0,0.0,0.0,-0.7944163680076599,-1.0449062585830688
6234000,0.002130528911948204,-0.002130528911948204,-0.004261057823896408,-0.0004995836643502116,-0.9999992251396179,-0.0009658871567808092,0.0005728750838898122,0.00028607738204300404,-0.00012493673420976847,3.587462344967207e-07,0.0,0.0,0.0,0.0,-0.7771120071411133,-0.9913575053215027
6254000,-0.002130528911948204,-0.004261057823896408,-0.002130528911948204,-0.0005382534000091255,-0.9999992251396179,-0.0009785933652892709,0.0005336708854883909,0.00029072421602904797,-0.00013170710008125752,3.465294753368653e-07,0.0,0.0,0.0,0.0,-0.7603188157081604,-0.9403130412101746
6274000,0.008522115647792816,-0.004261057823896408,-0.002130528911948204,-0.0005495768855325878,-0.9999992251396179,-0.0009977153968065977,0.0005463852430693805,0.00029305630596354604,-0.00013456260785460472,3.4106420798707404e-07,0.0,0.0,0.0,0.0,-0.7375741004943848,-0.8824687600135803
6294000,-0.002130528911948204,0.0,-0.002130528911948204,-0.0005517214303836226,-0.9999992251396179,-0.0010083401575684547,0.0005622599273920059,0.0002944669977296144,-0.0001353972329525277,3.387151821243606e-07,0.0,0.0,0.0,0.0,-0.7148768305778503,-0.8264152407646179
6314000,0.006391586735844612,-0.004261057823896408,-0.004261057823896408,-0.0005593081004917622,-0.9999992251396179,-0.00103387504350394,0.0005623188917525113,0.00029621124849654734,-0.00013717358524445444,3.3480452543699357e-07,0.0,0.0,0.0,0.0,-0.6905660629272461,-0.7690854072570801
6334000,0.0,-0.004261057823896408,-0.002130528911948204,-0.0005575197283178568,-0.9999992251396179,-0.001035938155837357,0.0005201900494284928,0.00029744324274361134,-0.00014422847016248852,3.2542880035180133e-07,0.0,0.0,0.0,0.0,-0.6792778372764587,-0.7317480444908142
6354000,0.004261057823896408,-0.002130528911948204,-0.002130528911948204,-0.0005903607234358788,-0.9999991059303284,-0.0010507887927815318,0.0005260331090539694,0.00030255730962380767,-0.0001464790548197925,3.174361324909114e-07,0.0,0.0,0.0,0.0,-0.6659430861473083,-0.6926212310791016
6374000,0.0,-0.004261057823896408,-0.002130528911948204,-0.0005985882598906755,-0.9999991059303284,-0.0010720635764300823,0.0005593531532213092,0.00030541798332706094,-0.00014534562069457024,3.155525973852491e-07,0.0,0.0,0.0,0.0,-0.642097532749176,-0.6401001214981079
6394000,0.0,-0.008522115647792816,-0.002130528911948204,-0.0005886173457838595,-0.9999991059303284,-0.0010912118013948202,0.0005863085389137268,0.00030496803810819983,-0.00014634092804044485,3.145473215226957e-07,0.0,0.0,0.0,0.0,-0.6178362965583801,-0.5884572267532349
6414000,0.002130528911948204,-0.0,0.0,-0.0006347999442368746,-0.9999989867210388,-0.0011060312390327454,0.0005789667484350502,0.0003118351160082966,-0.00015033085946924984,3.017001688476739e-07,0.0,0.0,0.0,0.0,-0.5941480398178101,-0.5391436815261841
6434000,0.002130528911948204,-0.004261057823896408,-0.002130528911948204,-0.0006681024678982794,-0.9999989867210388,-0.0011187776690348983,0.000617053359746933,0.0003159117477480322,-0.0001493507734267041,2.983758236041467e-07,0.0,0.0,0.0,0.0,-0.569985568523407,-0.49008309841156006
6454000,0.0,-0.002130528911948204,-0.004261057823896408,-0.0006933779804967344,-0.9999989867210388,-0.0011442856630310416,0.0005958147812634706,0.00031876395223662257,-0.00015345252177212387,2.8924816319886304e-07,0.0,0.0,0.0,0.0,-0.5454303026199341,-0.44246184825897217
6474000,0.004261057823896408,-0.002130528911948204,0.0,-0.0007313804817385972,-0.9999988675117493,-0.0011506170267239213,0.0006053734105080366,0.0003237341297790408,-0.00015489349607378244,2.8142380870121997e-07,0.0,0.0,0.0,0.0,-0.5212918519973755,-0.3965834677219391
6494000,0.0,-0.004261057823896408,0.0,-0.000805274466983974,-0.9999988675117493,-0.0011569076450541615,0.0005932653439231217,0.0003331403713673353,-0.00015785668801981956,2.6577407652439433e-07,0.0,0.0,0.0,0.0,-0.49992960691452026,-0.35594916343688965
6514000,0.004261057823896408,-0.002130528911948204,-0.004261057823896408,-0.0008530180784873664,-0.9999988675117493,-0.0011696224100887775,0.0005916573572903872,0.0003377935499884188,-0.0001606238365639001,2.557221421284339e-07,0.0,0.0,0.0,0.0,-0.4862428903579712,-0.32791686058044434
6534000,0.0,0.0,0.0,-0.0008965125889517367,-0.9999987483024597,-0.001192944822832942,0.0005630456143990159,0.0003430869255680591,-0.00016672629863023758,2.3920739522509393e-07,0.0,0.0,0.0,0.0,-0.46605294942855835,-0.2905106842517853
6554000,-0.002130528911948204,-0.002130528911948204,0.0,-0.0009104312630370259,-0.9999987483024597,-0.0012078300351276994,0.0006111213588155806,0.000345409382134676,-0.00016494801093358546,2.3946057581269997e-07,0.0,0.0,0.0,0.0,-0.44999492168426514,-0.26031821966171265
6574000,0.002130528911948204,-0.006391586735844612,-0.002130528911948204,-0.0009512940305285156,-0.9999986290931702,-0.0012290494050830603,0.0006312897894531488,0.00034999882336705923,-0.0001670224592089653,2.3003092053386354e-07,0.0,0.0,0.0,0.0,-0.4364205002784729,-0.23452207446098328
6594000,0.004261057823896408,-0.004261057823896408,-0.002130528911948204,-0.0009990695398300886,-0.9999985694885254,-0.0012481332523748279,0.0006478077848441899,0.0003554868744686246,-0.00016882142517715693,2.1921862014551152e-07,0.0,0.0,0.0,0.0,-0.42158758640289307,-0.20798547565937042
6614000,0.002130528911948204,0.0,0.002130528911948204,-0.000994985457509756,-0.9999985694885254,-0.0012416690587997437,0.0006473232060670853,0.00035642660805024207,-0.00017189387290272862,2.120307271979982e-07,0.0,0.0,0.0,0.0,-0.4093601405620575,-0.18549513816833496
6634000,0.002130528911948204,-0.008522115647792816,-0.002130528911948204,-0.0010009069228544831,-0.9999985694885254,-0.0012607104144990444,0.0005956793902441859,0.00035837155883200467,-0.0001800784666556865,1.9277719331967091e-07,0.0,0.0,0.0,0.0,-0.3842218816280365,-0.14537635445594788
6654000,0.002130528911948204,-0.002130528911948204,0.0,-0.0010933023877441883,-0.9999985098838806,-0.0012733491603285074,0.0005659525631926954,0.0003683174727484584,-0.0001856271701399237,1.6968405702755263e-07,0.0,0.0,0.0,0.0,-0.3771318793296814,-0.13212665915489197
6674000,0.004261057823896408,-0.002130528911948204,0.0,-0.001094651990570128,-0.9999985098838806,-0.0012859858106821775,0.0004934230237267911,0.0003693732724059373,-0.0001956720370799303,1.4700533768063906e-07,0.0,0.0,0.0,0.0,-0.3667912781238556,-0.1144450306892395
6694000,0.004261057823896408,-0.002130528911948204,-0.002130528911948204,-0.001074399915523827,-0.9999985098838806,-0.0012986984802410007,0.00046171294525265694,0.0003682619135361165,-0.00020056671928614378,1.3723982306146354e-07,0.0,0.0,0.0,0.0,-0.35206127166748047,-0.09134702384471893
6714000,0.002130528911948204,-0.006391586735844612,0.0,-0.0010298823472112417,-0.9999985098838806,-0.0013071616413071752,0.00043041628669016063,0.00036557813291437924,-0.0002052049239864573,1.2984114050595963e-07,0.0,0.0,0.0,0.0,-0.340787798166275,-0.07318421453237534
6734000,0.004261057823896408,-0.002130528911948204,0.0,-0.0010323460446670651,-0.9999985098838806,-0.0013155965134501457,0.0004056997422594577,0.0003669536963570863,-0.00021023971203248948,1.1834690383238922e-07,0.0,0.0,0.0,0.0,-0.3263101279735565,-0.050996679812669754
6754000,0.0,-0.006391586735844612,-0.002130528911948204,-0.001018183073028922,-0.9999985098838806,-0.0013240858679637313,0.00042502404539845884,0.000365381856681779,-0.00021129562810529023,1.1755500395338458e-07,0.0,0.0,0.0,0.0,-0.3091824948787689,-0.026486139744520187
6774000,0.002130528911948204,-0.002130528911948204,0.0,-0.0010583673138171434,-0.9999985098838806,-0.0013368527870625257,0.0004677058313973248,0.0003700934466905892,-0.00020873195899184793,1.1822278622730664e-07,0.0,0.0,0.0,0.0,-0.2938541769981384,-0.004914646036922932
6794000,0.004261057823896408,-0.002130528911948204,-0.002130528911948204,-0.0010729135246947408,-0.9999983906745911,-0.0013688193866983056,0.0005257414886727929,0.00037266078288666904,-0.00020464116823859513,1.2455538467293081e-07,0.0,0.0,0.0,0.0,-0.28456369042396545,0.0076813953928649426
6814000,0.0,-0.002130528911948204,-0.002130528911948204,-0.001077377237379551,-0.9999983906745911,-0.0013879653997719288,0.0005598890129476786,0.00037315653753466904,-0.00020421730005182326,1.2501701007749944e-07,0.0,0.0,0.0,0.0,-0.2679119408130646,0.030814891681075096
6834000,0.0,-0.006391586735844612,0.0,-0.0010881130583584309,-0.9999982714653015,-0.0014007100835442543,0.0005746028618887067,0.00037449353840202093,-0.00020488510199356824,1.221197578615829e-07,0.0,0.0,0.0,0.0,-0.25804051756858826,0.04276401922106743
6854000,0.002130528911948204,-0.002130528911948204,-0.002130528911948204,-0.00111300905700773,-0.999998152256012,-0.0014134447555989027,0.0005981271388009191,0.0003776706871576607,-0.00020488373411353678,1.1816529621455629e-07,0.0,0.0,0.0,0.0,-0.24912388622760773,0.05371282249689102
6874000,-0.004261057823896408,0.0,-0.004261057823896408,-0.001182996085844934,-0.9999982118606567,-0.0014218336436897516,0.0005631380481645465,0.0003851452493108809,-0.00021050857321824878,9.675885337401269e-08,0.0,0.0,0.0,0.0,-0.23517048358917236,0.07159276306629181
6894000,0.004261057823896408,-0.002130528911948204,0.0,-0.0011967428727075458,-0.9999980926513672,-0.001438804087229073,0.0005834269104525447,0.0003882605815306306,-0.0002114648959832266,9.103743536797992e-08,0.0,0.0,0.0,0.0,-0.22377674281597137,0.0854073092341423
6914000,0.0,-0.004261057823896408,-0.002130528911948204,-0.001176372985355556,-0.999998152256012,-0.0014473357005044818,0.0006298528169281781,0.000386471685487777,-0.00020917251822538674,9.835927272661138e-08,0.0,0.0,0.0,0.0,-0.2167680561542511,0.09199412912130356
6934000,-0.002130528911948204,-0.002130528911948204,0.002130528911948204,-0.0011380906216800213,-0.9999980926513672,-0.0014664451591670513,0.000616477569565177,0.00038268775097094476,-0.00021371713955886662,9.266045708500315e-08,0.0,0.0,0.0,0.0,-0.20593327283859253,0.10459509491920471
6954000,0.002130528911948204,-0.004261057823896408,-0.002130528911948204,-0.0011636236449703574,-0.9999980926513672,-0.0014791503781452775,0.0006207794649526477,0.0003863469755742699,-0.00021562671463470906,8.369330117830032e-08,0.0,0.0,0.0,0.0,-0.19205114245414734,0.12132136523723602
6974000,0.002130528911948204,-0.0,-0.002130528911948204,-0.0011623031459748745,-0.9999980926513672,-0.001491815084591508,0.0005838409997522831,0.0003881783050019294,-0.00022165972040966153,6.756162918009068e-08,0.0,0.0,0.0,0.0,-0.1779060661792755,0.137053981423378
6994000,-0.002130528911948204,0.0,0.002130528911948204,-0.001175445388071239,-0.9999979734420776,-0.0014960727421566844,0.0006430809153243899,0.0003890951629728079,-0.00021871193894185126,7.334377727374886e-08,0.0,0.0,0.0,0.0,-0.16310809552669525,0.15348687767982483
7014000,0.0,-0.004261057823896408,-0.002130528911948204,-0.0012119049206376076,-0.9999979138374329,-0.0015087652718648314,0.0006554062128998339,0.00039362607640214264,-0.00022045164951123297,6.33677998962412e-08,0.0,0.0,0.0,0.0,-0.148929625749588,0.1683986335992813
7034000,0.002130528911948204,-0.002130528911948204,-0.002130528911948204,-0.0012181015918031335,-0.9999979138374329,-0.0015320626553148031,0.0005944955628365278,0.0003955669526476413,-0.00022844775230623782,4.1766835323642226e-08,0.0,0.0,0.0,0.0,-0.13511353731155396,0.1827254295349121
7054000,0.002130528911948204,-0.002130528911948204,0.0,-0.001230863737873733,-0.9999979138374329,-0.0015490311197936535,0.000578872044570744,0.00039751504664309323,-0.0002316977916052565,3.14886463570474e-08,0.0,0.0,0.0,0.0,-0.11750122904777527,0.20198871195316315
7074000,0.0,-0.004261057823896408,-0.002130528911948204,-0.0012477129930630326,-0.9999979138374329,-0.0015596315497532487,0.0006080384482629597,0.0004000749613624066,-0.00023153156507760286,2.8877632729518155e-08,0.0,0.0,0.0,0.0,-0.11210337281227112,0.20320560038089752
7094000,-0.002130528911948204,-0.004261057823896408,-0.002130528911948204,-0.0012449348578229547,-0.9999977946281433,-0.0015787392621859908,0.0005928320460952818,0.0004017433093395084,-0.00023410216090269387,2.0453938986975118e-08,0.0,0.0,0.0,0.0,-0.10059449821710587,0.21301807463169098
7114000,0.0,-0.004261057823896408,0.0,-0.0012067265342921019,-0.9999978542327881,-0.0015979200834408402,0.0006296209176070988,0.00039879640098661184,-0.00023254231200553477,2.7834357041456315e-08,0.0,0.0,0.0,0.0,-0.09876447916030884,0.20908787846565247
7134000,0.0,-0.004261057823896408,-0.004261057823896408,-0.0012350816978141665,-0.9999977350234985,-0.001610610168427229,0.0006211061263456941,0.00040144650847651064,-0.00023613944358658046,1.5694702426571894e-08,0.0,0.0,0.0,0.0,-0.09704320877790451,0.20501016080379486
7154000,0.004261057823896408,-0.004261057823896408,-0.002130528911948204,-0.0011965817539021373,-0.9999977946281433,-0.0016233660280704498,0.0006462477031163871,0.00039932323852553964,-0.0002361677325097844,1.852957254300236e-08,0.0,0.0,0.0,0.0,-0.0853179395198822,0.2148372232913971
7174000,-0.002130528911948204,-0.004261057823896408,-0.002130528911948204,-0.0012232597218826413,-0.9999977350234985,-0.0016360650770366192,0.000647272914648056,0.00040329358307644725,-0.00023816850443836302,8.569653431322877e-09,0.0,0.0,0.0,0.0,-0.0798235833644867,0.21601034700870514
7194000,0.006391586735844612,-0.002130528911948204,0.0,-0.0012162758503109217,-0.9999977350234985,-0.001648754347115755,0.0006373062497004867,0.0004041116335429251,-0.00024191000557038933,-1.6283623338608777e-09,0.0,0.0,0.0,0.0,-0.07104083150625229,0.22167712450027466
7214000,0.0,0.0,0.002130528911948204,-0.0011976128444075584,-0.9999977350234985,-0.0016635979991406202,0.0006134071736596525,0.00040205978439189494,-0.00024661776842549443,-1.0266192340679936e-08,0.0,0.0,0.0,0.0,-0.05991140007972717,0.22981888055801392
7234000,0.002130528911948204,0.0,0.0,-0.001188125112093985,-0.9999977350234985,-0.001669916557148099,0.0006057049031369388,0.0004026269307360053,-0.0002494861255399883,-1.792870207850683e-08,0.0,0.0,0.0,0.0,-0.04908439517021179,0.23824144899845123
7254000,0.002130528911948204,-0.002130528911948204,0.0,-0.0012130929389968514,-0.9999977350234985,-0.0016783616738393903,0.0006443081074394286,0.0004070579307153821,-0.00024899677373468876,-2.2757985718158125e-08,0.0,0.0,0.0,0.0,-0.040376074612140656,0.24343958497047424
7274000,0.002130528911948204,-0.006391586735844612,-0.002130528911948204,-0.0012225948739796877,-0.9999977350234985,-0.0016952776350080967,0.0006148573593236506,0.0004095231124665588,-0.0002546733303461224,-3.979025464673214e-08,0.0,0.0,0.0,0.0,-0.0444374680519104,0.2307262271642685
7294000,0.004261057823896408,-0.002130528911948204,-0.002130528911948204,-0.001237995456904173,-0.999997615814209,-0.001705859089270234,0.0006100446917116642,0.00041256958502344787,-0.00025660308892838657,-4.8342460701178425e-08,0.0,0.0,0.0,0.0,-0.043187182396650314,0.22519133985042572
7314000,0.002130528911948204,-0.002130528911948204,0.0,-0.0012408292386680841,-0.999997615814209,-0.0017207283526659012,0.0006202580407261848,0.00041392893763259053,-0.0002572446537669748,-5.1637677245253144e-08,0.0,0.0,0.0,0.0,-0.03457590565085411,0.2307998687028885
7334000,0.0,-0.0,-0.002130528911948204,-0.001277752104215324,-0.9999974966049194,-0.0017398088239133358,0.0006122596678324044,0.00041869832784868777,-0.00025991216534748673,-6.42372128822899e-08,0.0,0.0,0.0,0.0,-0.03248962387442589,0.2266315370798111
7354000,0.0,-0.002130528911948204,0.0,-0.001253137132152915,-0.999997615814209,-0.0017503640847280622,0.0005943368887528777,0.0004175264621153474,-0.00026464491384103894,-7.461994044888343e-08,0.0,0.0,0.0,0.0,-0.024671100080013275,0.23070883750915527
7374000,0.0,-0.002130528911948204,0.0,-0.0012433351948857307,-0.9999974966049194,-0.0017673108959570527,0.0005749318515881896,0.0004186881997156888,-0.00026866592816077173,-8.615633362296649e-08,0.0,0.0,0.0,0.0,-0.019885148853063583,0.23058265447616577
7394000,-0.004261057823896408,-0.004261057823896408,0.0,-0.0013041023630648851,-0.9999973773956299,-0.0017800242640078068,0.000589411414694041,0.0004247665638104081,-0.000269282580120489,-9.460026717533765e-08,0.0,0.0,0.0,0.0,-0.011722834780812263,0.23540014028549194
7414000,0.002130528911948204,-0.002130528911948204,-0.002130528911948204,-0.001274583162739873,-0.9999974370002747,-0.001811979804188013,0.0006529951933771372,0.000423085322836414,-0.000266287534032017,-8.466862055911406e-08,0.0,0.0,0.0,0.0,-0.0064156632870435715,0.23613572120666504
7434000,0.0,-0.004261057823896408,-0.004261057823896408,-0.001295000547543168,-0.9999973177909851,-0.0018374378560110927,0.0006426495965570211,0.0004251327773090452,-0.0002704625076148659,-9.803754608128656e-08,0.0,0.0,0.0,0.0,0.0035027312114834785,0.24264374375343323
7454000,0.004261057823896408,0.0,-0.004261057823896408,-0.0013234607176855206,-0.9999972581863403,-0.0018458792474120855,0.0006310251192189753,0.00042947137262672186,-0.00027262838557362556,-1.0940734540554331e-07,0.0,0.0,0.0,0.0,0.003486630506813526,0.23551595211029053
7474000,0.006391586735844612,-0.004261057823896408,-0.004261057823896408,-0.0013240381376817822,-0.9999971985816956,-0.001854320173151791,0.0006444048485718668,0.00043143905350007117,-0.0002740008640103042,-1.157144353669537e-07,0.0,0.0,0.0,0.0,0.005429149605333805,0.23108084499835968
7494000,0.002130528911948204,-0.004261057823896408,-0.004261057823896408,-0.0013761004665866494,-0.9999971985816956,-0.0018754504853859544,0.0005886186263523996,0.000437927374150604,-0.00028142626979388297,-1.4387582325525727e-07,0.0,0.0,0.0,0.0,0.011326830834150314,0.2327209860086441
7514000,0.002130528911948204,-0.004261057823896408,-0.002130528911948204,-0.0014142004074528813,-0.9999969601631165,-0.0018924955511465669,0.000657025957480073,0.0004417106683831662,-0.0002770720166154206,-1.362854504805e-07,0.0,0.0,0.0,0.0,0.021541332826018333,0.24011866748332977
7534000,-0.002130528911948204,0.0,0.002130528911948204,-0.0014261644100770354,-0.9999969601631165,-0.0019116010516881943,0.0006663725362159312,0.00044267656630836427,-0.0002788419951684773,-1.4243215673559462e-07,0.0,0.0,0.0,0.0,0.015588223934173584,0.22433021664619446
7554000,0.004261057823896408,-0.004261057823896408,-0.004261057823896408,-0.0014540288830175996,-0.9999969005584717,-0.0019264222355559468,0.00069001893280074,0.0004452289722394198,-0.00028024372295476496,-1.5006533260475408e-07,0.0,0.0,0.0,0.0,0.020074736326932907,0.2240215241909027
7574000,0.0,0.002130528911948204,-0.004261057823896408,-0.0014353282749652863,-0.9999969601631165,-0.0019412041874602437,0.0006297762738540769,0.0004442062636371702,-0.0002879067324101925,-1.7027343801601091e-07,0.0,0.0,0.0,0.0,0.019200284034013748,0.21615548431873322
7594000,0.0,-0.002130528911948204,-0.002130528911948204,-0.0014577583642676473,-0.9999968409538269,-0.001964504597708583,0.0006088247755542397,0.00044686056207865477,-0.0002929048496298492,-1.8806598234277772e-07,0.0,0.0,0.0,0.0,0.02269495278596878,0.21372443437576294
7614000,0.002130528911948204,0.0,0.002130528911948204,-0.0014085585717111826,-0.9999969601631165,-0.001975046470761299,0.0005682766786776483,0.00044278264977037907,-0.0002994451206177473,-2.0182872617624525e-07,0.0,0.0,0.0,0.0,0.018302222713828087,0.2001744657754898
7634000,0.0,-0.004261057823896408,-0.002130528911948204,-0.0013721202267333865,-0.9999969601631165,-0.0019834977574646473,0.0005586662446148694,0.000439765426563099,-0.00030288330162875354,-2.0797897093416395e-07,0.0,0.0,0.0,0.0,0.018268100917339325,0.19418181478977203
7654000,0.0,-0.002130528911948204,-0.006391586735844612,-0.0013271241914480925,-0.9999970197677612,-0.00200684298761189,0.0005229180678725243,0.0004361136525403708,-0.00030850840266793966,-2.1925202986494696e-07,0.0,0.0,0.0,0.0,0.022422416135668755,0.19367679953575134
7674000,0.0,-0.004261057823896408,-0.006391586735844612,-0.0012831909116357565,-0.9999970197677612,-0.002032287186011672,0.0004865868540946394,0.0004329984658397734,-0.00031525077065452933,-2.3376571789412992e-07,0.0,0.0,0.0,0.0,0.025737259536981583,0.19268810749053955
